{
  "resourceType": "CarePlan",
  "id": "preg",
  "text": {
    "status": "additional",
    "div": "<div xmlns=\"http://www.w3.org/1999/xhtml\">\n      <p>A maternity care plan (for a pregnant woman).</p>\n      <p>LMP is 1st Jan, 2013 (a greaat new years party!) The plan has a scheduled first antenatal,\n            and 'placeholders' for the second antenatal and delivery (there would be lots of others of course)</p>\n      <p>Note that where is a proposed 'status' element against each activity</p>\n    </div>"
  },
  "contained": [
    {
      "resourceType": "Condition",
      "id": "p1",
      "patient": {
        "reference": "Patient/1",
        "display": "Eve Everywoman"
      },
      "code": {
        "text": "pregnancy"
      },
      "verificationStatus": "confirmed"
    },
    {
      "resourceType": "Practitioner",
      "id": "pr1",
      "name": [
        {
          "family": [
            "Midwife"
          ],
          "given": [
            "Mavis"
          ]
        }
      ],
      "practitionerRole": [
        {
          "specialty": [
            {
              "text": "Midwife"
            }
          ]
        }
      ]
    },
    {
      "resourceType": "Practitioner",
      "id": "pr2",
      "name": [
        {
          "family": [
            "Obstetrician"
          ],
          "given": [
            "Oscar"
          ]
        }
      ],
      "practitionerRole": [
        {
          "specialty": [
            {
              "text": "Obstetrician"
            }
          ]
        }
      ]
    },
    {
      "resourceType": "CareTeam",
      "id": "careteam",
      "participant": [
        {
          "role": {
            "coding": [
              {
                "system": "http://example.org/mysys",
                "code": "lmc"
              }
            ],
            "text": "Midwife"
          },
          "member": {
            "reference": "#pr1",
            "display": "Mavis Midwife"
          }
        },
        {
          "role": {
            "coding": [
              {
                "system": "http://example.org/mysys",
                "code": "obs"
              }
            ],
            "text": "Obstretitian"
          },
          "member": {
            "reference": "#pr2",
            "display": "Oscar Obstetrician"
          }
        }
      ]
    },
    {
      "resourceType": "Goal",
      "id": "goal",
      "subject": {
        "reference": "Patient/1",
        "display": "Eve Everywoman"
      },
      "description": "Maintain patient's health throughout pregnancy and ensure a healthy child",
      "status": "in-progress"
    }
  ],
  "extension": [
    {
      "url": "http://example.org/DoNotUse/careplan#lmp",
      "valueDateTime": "2013-01-01"
    }
  ],
  "subject": {
    "reference": "Patient/1",
    "display": "Eve Everywoman"
  },
  "status": "active",
  "period": {
    "start": "2013-01-01",
    "end": "2013-10-01"
  },
  "addresses": [
    {
      "reference": "#p1",
      "display": "pregnancy"
    }
  ],
  "careTeam": {
    "reference": "#careteam"
  },
  "goal": [
    {
      "reference": "#goal"
    }
  ],
  "activity": [
    {
      "extension": [
        {
          "url": "http://example.org/DoNotUse/careplan#andetails",
          "valueUri": "http://orionhealth.com/fhir/careplan/1andetails"
        }
      ],
      "detail": {
        "category": {
          "coding": [
            {
              "system": "http://hl7.org/fhir/care-plan-activity-category",
              "code": "encounter"
            }
          ]
        },
        "code": {
          "coding": [
            {
              "system": "http://example.org/mySystem",
              "code": "1an"
            }
          ],
          "text": "First Antenatal encounter"
        },
        "status": "scheduled",
        "prohibited": false,
        "scheduledTiming": {
          "repeat": {
            "boundsPeriod": {
              "start": "2013-02-14",
              "end": "2013-02-28"
            }
          }
        },
        "performer": [
          {
            "reference": "#pr1",
            "display": "Mavis Midwife"
          }
        ],
        "description": "The first antenatal encounter. This is where a detailed physical examination is performed.             and the pregnanacy discussed with the mother-to-be."
      }
    },
    {
      "detail": {
        "category": {
          "coding": [
            {
              "system": "http://hl7.org/fhir/care-plan-activity-category",
              "code": "encounter"
            }
          ]
        },
        "code": {
          "coding": [
            {
              "system": "http://example.org/mySystem",
              "code": "an"
            }
          ],
          "text": "Follow-up Antenatal encounter"
        },
        "status": "not-started",
        "prohibited": false,
        "scheduledTiming": {
          "repeat": {
            "boundsPeriod": {
              "start": "2013-03-01",
              "end": "2013-03-14"
            }
          }
        },
        "performer": [
          {
            "reference": "#pr1",
            "display": "Mavis Midwife"
          }
        ],
        "description": "The second antenatal encounter. Discuss any issues that arose from the first antenatal encounter"
      }
    },
    {
      "detail": {
        "category": {
          "coding": [
            {
              "system": "http://hl7.org/fhir/care-plan-activity-category",
              "code": "encounter"
            }
          ]
        },
        "code": {
          "coding": [
            {
              "system": "http://example.org/mySystem",
              "code": "del"
            }
          ],
          "text": "Delivery"
        },
        "status": "not-started",
        "prohibited": false,
        "scheduledTiming": {
          "repeat": {
            "boundsPeriod": {
              "start": "2013-09-01",
              "end": "2013-09-14"
            }
          }
        },
        "performer": [
          {
            "reference": "#pr1",
            "display": "Mavis Midwife"
          }
        ],
        "description": "The delivery."
      }
    }
  ]
}