{
  "resourceType": "CarePlan",
  "id": "example",
  "text": {
    "status": "additional",
    "div": "<div xmlns=\"http://www.w3.org/1999/xhtml\">\n      <p> A simple care plan to indicate a patient taking their weight once a day because of obesity.\n            Some Notes: </p>\n      <ul>\n        <li>It would be good to have some way of specifying/coding a goal; e.g. what the target weight is</li>\n        <li>In the codeable concepts I've been lazy and just put the text. There should, of course, be a code behind these</li>\n      </ul>\n    </div>"
  },
  "contained": [
    {
      "resourceType": "Condition",
      "id": "p1",
      "patient": {
        "reference": "Patient/example",
        "display": "Peter James Chalmers"
      },
      "code": {
        "text": "Obesity"
      },
      "verificationStatus": "confirmed"
    },
    {
      "resourceType": "Goal",
      "id": "goal",
      "extension": [
        {
          "url": "http://hl7.org/fhir/StructureDefinition/goal-target",
          "extension": [
            {
              "url": "goal-target.measure",
              "valueCodeableConcept": {
                "coding": [
                  {
                    "system": "http://loinc.org",
                    "code": "29463-7",
                    "display": "Body weight"
                  }
                ]
              }
            },
            {
              "url": "goal-target.detail",
              "valueQuantity": {
                "value": 80,
                "system": "http://units-of-measure.org",
                "code": "kg"
              }
            }
          ]
        }
      ],
      "subject": {
        "reference": "Patient/example",
        "display": "Peter James Chalmers"
      },
      "description": "Target weight is 80 kg",
      "status": "planned"
    }
  ],
  "subject": {
    "reference": "Patient/example",
    "display": "Peter James Chalmers"
  },
  "status": "active",
  "period": {
    "end": "2013-01-01"
  },
  "addresses": [
    {
      "reference": "#p1",
      "display": "obesity"
    }
  ],
  "careTeam": {
    "reference": "CareTeam/example"
  },
  "goal": [
    {
      "reference": "#goal"
    }
  ],
  "activity": [
    {
      "detail": {
        "category": {
          "coding": [
            {
              "system": "http://hl7.org/fhir/care-plan-activity-category",
              "code": "observation"
            }
          ]
        },
        "code": {
          "text": "a code for weight measurement"
        },
        "prohibited": false,
        "scheduledTiming": {
          "repeat": {
            "frequency": 1,
            "period": 1,
            "periodUnit": "d"
          }
        },
        "performer": [
          {
            "reference": "Patient/example",
            "display": "Peter James Chalmers"
          }
        ]
      }
    }
  ]
}